{
  "resourceType": "Bundle",
  "type": "transaction",
  "entry": [
    {
      "resource": {
        "resourceType": "Patient",
        "id": "cf-1548845717752",
        "meta": {
          "versionId": "1",
          "lastUpdated": "2019-01-30T10:56:03.000+00:00",
          "profile": [
            "http://hl7.org/fhir/us/qicore/StructureDefinition/qicore-patient"
          ]
        },
        "text": {
          "status": "generated",
          "div": "<div xmlns=\"http://www.w3.org/1999/xhtml\"><div class=\"hapiHeaderText\">DARA<b>KIM</b></div><table class=\"hapiPropertyTable\"><tbody><tr><td>Identifier</td><td>34567</td></tr><tr><td>Address</td><td><span>123 Main St </span><br/><span>Kansas City </span><span>MO </span><span>USA </span></td></tr><tr><td>Date of birth</td><td><span>1 January 1941 </span></td></tr></tbody></table></div>"
        },
        "extension": [
          {
            "url": "http://hl7.org/fhir/us/core/StructureDefinition/us-core-birthsex",
            "valueCode": "F"
          },
          {
            "url": "http://hl7.org/fhir/us/core/StructureDefinition/us-core-race",
            "extension": [
              {
                "url": "ombCategory",
                "valueCoding": {
                  "system": "urn:oid:2.16.840.1.113883.6.238",
                  "code": "2186-5",
                  "display": "Asian"
                }
              },
              {
                "url": "text",
                "valueString": "Not Hispanic or Latino"
              }
            ]
          },
          {
            "url": "http://hl7.org/fhir/us/core/StructureDefinition/us-core-ethnicity",
            "extension": [
              {
                "url": "ombCategory",
                "valueCoding": {
                  "system": "urn:oid:2.16.840.1.113883.6.238",
                  "code": "2186-5",
                  "display": "Not Hispanic or Latino"
                }
              },
              {
                "url": "text",
                "valueString": "Not Hispanic or Latino"
              }
            ]
          }
        ],
        "identifier": [
          {
            "use": "usual",
            "type": {
              "coding": [
                {
                  "system": "http://hl7.org/fhir/v2/0203",
                  "code": "MR",
                  "display": "Medical record number"
                }
              ]
            },
            "system": "http://hospital.davinci.org",
            "value": "45678"
          }
        ],
        "active": true,
        "name": [
          {
            "use": "official",
            "family": "Kim",
            "given": [
              "Dara"
            ]
          }
        ],
        "gender": "female",
        "birthDate": "1941-01-01",
        "deceasedBoolean": false,
        "address": [
          {
            "use": "home",
            "line": [
              "123 Main St"
            ],
            "city": "Kansas City",
            "state": "MO",
            "postalCode": "64119",
            "country": "USA"
          }
        ],
        "maritalStatus": {
          "coding": [
            {
              "system": "http://hl7.org/fhir/v3/MaritalStatus",
              "code": "U",
              "display": "unmarried"
            }
          ]
        },
        "communication": [
          {
            "language": {
              "coding": [
                {
                  "system": "urn:ietf:bcp:47",
                  "code": "en-US",
                  "display": "US English"
                }
              ]
            },
            "preferred": true
          }
        ],
        "managingOrganization": {
          "reference": "Organization/organization03"
        }
      },
      "request": {
        "method": "PUT",
        "url": "Patient/cf-1548845717752"
      }
    },
    {
      "resource": {
        "resourceType": "Coverage",
        "id": "cf-1549031394388",
        "meta": {
          "versionId": "2",
          "lastUpdated": "2019-02-01T14:33:46.000+00:00",
          "profile": [
            "http://hl7.org/fhir/us/davinci-deqm/STU3/StructureDefinition/coverage-deqm"
          ]
        },
        "policyHolder": {
          "reference": "Patient/cf-1548845717752"
        },
        "subscriber": {
          "reference": "Patient/cf-1548845717752"
        },
        "subscriberId": "C123456709",
        "beneficiary": {
          "reference": "Patient/cf-1548845717752"
        },
        "relationship": {
          "coding": [
            {
              "code": "self"
            }
          ]
        },
        "payor": [
          {
            "reference": "Organization/organization01"
          }
        ]
      },
      "request": {
        "method": "PUT",
        "url": "Coverage/cf-1549031394388"
      }
    },
    {
      "resource": {
        "resourceType": "MedicationRequest",
        "id": "cf-1548845981245",
        "meta": {
          "versionId": "2",
          "lastUpdated": "2019-01-30T11:54:18.000+00:00"
        },
        "text": {
          "status": "generated",
          "div": "<div xmlns=\"http://www.w3.org/1999/xhtml\">Aspirin 325 MG Oral Tablet<a name=\"mm\"></a></div>"
        },
        "status": "active",
        "intent": "order",
        "medicationCodeableConcept": {
          "coding": [
            {
              "system": "http://www.nlm.nih.gov/research/umls/rxnorm",
              "code": "432389",
              "display": "Aspirin 325 MG Oral Tablet"
            }
          ]
        },
        "authoredOn": "2018-07-01",
        "dosageInstruction": [
          {
            "text": "1 tab po qd",
            "timing": {
              "repeat": {
                "frequency": 1,
                "period": 1
              }
            },
            "route": {
              "coding": [
                {
                  "system": "http://snomed.info/sct",
                  "code": "26643006",
                  "display": "Oral Route (qualifier value)"
                }
              ]
            }
          }
        ]
      },
      "request": {
        "method": "PUT",
        "url": "MedicationRequest/cf-1548845981245"
      }
    },
    {
      "resource": {
        "resourceType": "MedicationRequest",
        "id": "cf-1548846460516",
        "meta": {
          "versionId": "2",
          "lastUpdated": "2019-01-30T11:54:18.000+00:00"
        },
        "text": {
          "status": "generated",
          "div": "<div xmlns=\"http://www.w3.org/1999/xhtml\">Atorvastatin 20 MG Oral Tablet<a name=\"mm\"></a></div>"
        },
        "status": "active",
        "intent": "order",
        "medicationCodeableConcept": {
          "coding": [
            {
              "system": "http://www.nlm.nih.gov/research/umls/rxnorm",
              "code": "617318",
              "display": "Atorvastatin 20 MG Oral Tablet"
            }
          ]
        },
        "authoredOn": "2018-07-01",
        "dosageInstruction": [
          {
            "text": "1 tab po qd",
            "timing": {
              "repeat": {
                "frequency": 1,
                "period": 1
              }
            },
            "route": {
              "coding": [
                {
                  "system": "http://snomed.info/sct",
                  "code": "26643006",
                  "display": "Oral Route (qualifier value)"
                }
              ]
            }
          }
        ]
      },
      "request": {
        "method": "PUT",
        "url": "MedicationRequest/cf-1548846460516"
      }
    },
    {
      "resource": {
        "resourceType": "MedicationRequest",
        "id": "cf-1548846957730",
        "meta": {
          "versionId": "3",
          "lastUpdated": "2019-02-01T15:35:04.000+00:00"
        },
        "text": {
          "status": "generated",
          "div": "<div xmlns=\"http://www.w3.org/1999/xhtml\">Albuterol Inhaler<a name=\"mm\"></a></div>"
        },
        "status": "active",
        "intent": "order",
        "medicationCodeableConcept": {
          "coding": [
            {
              "system": "http://www.nlm.nih.gov/research/umls/rxnorm",
              "code": "1154602",
              "display": "Albuterol Inhaler"
            }
          ]
        },
        "authoredOn": "2018-07-01",
        "dosageInstruction": [
          {
            "text": "2 puffs q6hrs PRN",
            "timing": {
              "repeat": {
                "frequency": 1,
                "period": 1
              }
            },
            "route": {
              "coding": [
                {
                  "system": "http://snomed.info/sct",
                  "code": "447694001",
                  "display": " Inhalation Route"
                }
              ]
            }
          }
        ]
      },
      "request": {
        "method": "PUT",
        "url": "MedicationRequest/cf-1548846957730"
      }
    },
    {
      "resource": {
        "resourceType": "MedicationRequest",
        "id": "cf-1548847183063",
        "meta": {
          "versionId": "5",
          "lastUpdated": "2019-02-01T15:22:24.000+00:00"
        },
        "text": {
          "status": "generated",
          "div": "<div xmlns=\"http://www.w3.org/1999/xhtml\">Budesonide/Formoterol 160/4.5 MDI<a name=\"mm\"></a></div>"
        },
        "status": "active",
        "intent": "order",
        "medicationCodeableConcept": {
          "coding": [
            {
              "system": "http://www.nlm.nih.gov/research/umls/rxnorm",
              "code": "1246314",
              "display": "Budesonide/formoterol 160/4.5 MDI"
            }
          ]
        },
        "authoredOn": "2018-07-01",
        "dosageInstruction": [
          {
            "text": "1 puffs every 12 hours",
            "timing": {
              "repeat": {
                "frequency": 2,
                "period": 1
              }
            },
            "route": {
              "coding": [
                {
                  "system": "http://snomed.info/sct",
                  "code": "447694001",
                  "display": " Inhalation Route"
                }
              ]
            }
          }
        ]
      },
      "request": {
        "method": "PUT",
        "url": "MedicationRequest/cf-1548847183063"
      }
    },
    {
      "resource": {
        "resourceType": "MedicationRequest",
        "id": "cf-1548847249071",
        "meta": {
          "versionId": "2",
          "lastUpdated": "2019-01-30T11:54:18.000+00:00"
        },
        "text": {
          "status": "generated",
          "div": "<div xmlns=\"http://www.w3.org/1999/xhtml\">Clopidogrel 75 MG<a name=\"mm\"></a></div>"
        },
        "status": "active",
        "intent": "order",
        "medicationCodeableConcept": {
          "coding": [
            {
              "system": "http://www.nlm.nih.gov/research/umls/rxnorm",
              "code": "329449",
              "display": "Clopidogrel 75 MG Oral Tablet"
            }
          ]
        },
        "authoredOn": "2018-07-01",
        "dosageInstruction": [
          {
            "text": "1 tab po qd",
            "timing": {
              "repeat": {
                "frequency": 1,
                "period": 1
              }
            },
            "route": {
              "coding": [
                {
                  "system": "http://snomed.info/sct",
                  "code": "26643006",
                  "display": "Oral Route (qualifier value)"
                }
              ]
            }
          }
        ]
      },
      "request": {
        "method": "PUT",
        "url": "MedicationRequest/cf-1548847249071"
      }
    },
    {
      "resource": {
        "resourceType": "MedicationRequest",
        "id": "cf-1548847724412",
        "meta": {
          "versionId": "4",
          "lastUpdated": "2019-02-01T15:22:54.000+00:00"
        },
        "text": {
          "status": "generated",
          "div": "<div xmlns=\"http://www.w3.org/1999/xhtml\">Budesonide/Formoterol fumarate 80/4.5<a name=\"mm\"></a></div>"
        },
        "status": "active",
        "intent": "order",
        "medicationCodeableConcept": {
          "coding": [
            {
              "system": "http://www.nlm.nih.gov/research/umls/rxnorm",
              "code": "1246314",
              "display": "Budesonide/formoterol 80/4.5 MDI"
            }
          ]
        },
        "authoredOn": "2018-07-01",
        "dosageInstruction": [
          {
            "text": "1 puffs every 12 hours",
            "timing": {
              "repeat": {
                "frequency": 2,
                "period": 1
              }
            },
            "route": {
              "coding": [
                {
                  "system": "http://snomed.info/sct",
                  "code": "447694001",
                  "display": " Inhalation Route"
                }
              ]
            }
          }
        ]
      },
      "request": {
        "method": "PUT",
        "url": "MedicationRequest/cf-1548847724412"
      }
    },
    {
      "resource": {
        "resourceType": "MedicationRequest",
        "id": "cf-1549033037358",
        "meta": {
          "versionId": "3",
          "lastUpdated": "2019-02-01T15:35:31.000+00:00"
        },
        "text": {
          "status": "generated",
          "div": "<div xmlns=\"http://www.w3.org/1999/xhtml\">Albuterol Inhaler<a name=\"mm\"></a></div>"
        },
        "status": "active",
        "intent": "order",
        "medicationCodeableConcept": {
          "coding": [
            {
              "system": "http://www.nlm.nih.gov/research/umls/rxnorm",
              "code": "1154602",
              "display": "Albuterol Inhaler"
            }
          ]
        },
        "subject": {
          "reference": "Patient/cf-1548845717752"
        },
        "authoredOn": "2018-07-01",
        "dosageInstruction": [
          {
            "text": "2 puffs q6hrs PRN",
            "timing": {
              "repeat": {
                "frequency": 1,
                "period": 1
              }
            },
            "route": {
              "coding": [
                {
                  "system": "http://snomed.info/sct",
                  "code": "447694001",
                  "display": " Inhalation Route"
                }
              ]
            }
          }
        ]
      },
      "request": {
        "method": "PUT",
        "url": "MedicationRequest/cf-1549033037358"
      }
    },
    {
      "resource": {
        "resourceType": "List",
        "id": "cf-1549030480855",
        "meta": {
          "versionId": "2",
          "lastUpdated": "2019-02-01T15:16:42.000+00:00"
        },
        "text": {
          "status": "generated",
          "div": "<div xmlns=\"http://www.w3.org/1999/xhtml\">Outpatient Medication List<a name=\"mm\"></a></div>"
        },
        "title": "Outpatient Medication List",
        "subject": {
          "reference": "Patient/cf-1548845717752"
        },
        "date": "2019-01-02",
        "entry": [
          {
            "item": {
              "reference": "MedicationRequest/cf-1549033037358"
            }
          },
          {
            "item": {
              "reference": "MedicationRequest/cf-1548847724412"
            }
          }
        ]
      },
      "request": {
        "method": "PUT",
        "url": "List/cf-1549030480855"
      }
    },
    {
      "resource": {
        "resourceType": "List",
        "id": "cf-1549030685865",
        "meta": {
          "versionId": "3",
          "lastUpdated": "2019-02-01T15:27:24.000+00:00"
        },
        "text": {
          "status": "generated",
          "div": "<div xmlns=\"http://www.w3.org/1999/xhtml\">Discharge Medications<a name=\"mm\"></a></div>"
        },
        "title": "Discharge Medication List",
        "subject": {
          "reference": "Patient/cf-1548845717752"
        },
        "date": "2019-02-12",
        "entry": [
          {
            "item": {
              "reference": "MedicationRequest/cf-1548847183063"
            }
          },
          {
            "item": {
              "reference": "MedicationRequest/cf-1548845981245"
            }
          },
          {
            "item": {
              "reference": "MedicationRequest/cf-1548847249071"
            }
          },
          {
            "item": {
              "reference": "MedicationRequest/cf-1548846460516"
            }
          },
          {
            "item": {
              "reference": "MedicationRequest/cf-1548846957730"
            }
          }
        ]
      },
      "request": {
        "method": "PUT",
        "url": "List/cf-1549030685865"
      }
    }
  ]
}